listName,ItemText,Question,Option1,Option2,Framing,conditions.thisRepN,conditions.thisTrialN,conditions.thisN,conditions.thisIndex,trials.thisRepN,trials.thisTrialN,trials.thisN,trials.thisIndex,thisRow.t,notes,Welcome.started,text_3.started,key_resp.started,Welcome.stopped,key_resp.keys,key_resp.rt,key_resp.duration,Instructions.started,text_4.started,key_resp_2.started,Instructions.stopped,key_resp_2.keys,key_resp_2.rt,key_resp_2.duration,trial.started,button.started,button_2.started,text.started,text_2.started,trial.stopped,button.numClicks,button.timesOn,button.timesOff,button_2.numClicks,button_2.timesOn,button_2.timesOff,code.started,code.stopped,Goodbye.started,text_5.started,participant,session,date,expName,psychopyVersion,frameRate,expStart,
,,,,,,,,,,,,,,,,0.010090915951877832,0.018117374973371625,0.018117374973371625,1.137947165989317,space,1.0932475000154227,None,,,,,,,,,,,,,,,,,,,,,,,,302282,001,2023-10-15_20h00.49.440,Framing_HieuLe,2023.2.1,60.169693585106295,2023-10-15 20h00.57.101684 -0500,
,,,,,,,,,,,,,,,,,,,,,,,1.1379889579256997,1.1541221659863368,1.1541221659863368,1.8410367909818888,space,0.6735519160283729,None,,,,,,,,,,,,,,,,,302282,001,2023-10-15_20h00.49.440,Framing_HieuLe,2023.2.1,60.169693585106295,2023-10-15 20h00.57.101684 -0500,
framing1.xlsx,"Linda is 31 years old, single, outspoken, and very bright. She majored in
philosophy. As a student, she was deeply concerned with issues of discrimination and social
justice, and also participated in anti-nuclear demonstrations.",Which is more probable:,Linda is a bank teller.,"Linda is a bank teller who is also
involved in the feminist movement.",1,0,0,0,0,0,0,0,4,1.9257600409910083,,,,,,,,,,,,,,,,1.8551850409712642,1.9257600409910083,1.9257600409910083,1.9257600409910083,1.9257600409910083,8.791125915944576,1,[6.880471625016071],[6.880476874997839],0,,,,,,,302282,001,2023-10-15_20h00.49.440,Framing_HieuLe,2023.2.1,60.169693585106295,2023-10-15 20h00.57.101684 -0500,
framing1.xlsx,"A new vaccine is available for a deadly new disease that is sweeping across the
world. Scientists estimate that if 1 million people take the vaccine, 1,000 of those people will
still die from the disease.","Would you take the vaccine, if given the opportunity?",YES,NO,1,0,0,0,0,0,1,1,0,8.832396499929018,,,,,,,,,,,,,,,,8.792079207953066,8.832396499929018,8.832396499929018,8.832396499929018,8.832396499929018,9.141342540970072,1,[0.3195524999173358],[0.3195576659636572],0,,,,,,,302282,001,2023-10-15_20h00.49.440,Framing_HieuLe,2023.2.1,60.169693585106295,2023-10-15 20h00.57.101684 -0500,
framing1.xlsx,"You are deciding between buying two cars, Car A and Car B. On a car review
website, you find that the average of 1,000 ratings for Car A is a 4.95/5.0 and the average rating
for Car B is 3.70/5.0.",Which car would you decide to purchase?,CAR A,CAR B,1,0,0,0,0,0,2,2,2,9.18423916597385,,,,,,,,,,,,,,,,9.141958832973614,9.18423916597385,9.18423916597385,9.18423916597385,9.18423916597385,9.341168500017375,1,[0.16750783298630267],[0.16751312499400228],0,,,,,,,302282,001,2023-10-15_20h00.49.440,Framing_HieuLe,2023.2.1,60.169693585106295,2023-10-15 20h00.57.101684 -0500,
framing1.xlsx,"At a fundraiser, you are presented with two options for a raffle ticket. For Option A,
you are guaranteed to win a gift card to a random restaurant valued at $5. For Option B, you
have a 20% chance to win a gift card to a random restaurant valued at $25.",Which option would you select?,OPTION A,OPTION B,1,0,0,0,0,0,3,3,3,9.377310915966518,,,,,,,,,,,,,,,,9.342090582940727,9.377310915966518,9.377310915966518,9.377310915966518,9.377310915966518,9.541229499969631,1,[0.174299499951303],[0.1743046249030158],0,,,,,,,302282,001,2023-10-15_20h00.49.440,Framing_HieuLe,2023.2.1,60.169693585106295,2023-10-15 20h00.57.101684 -0500,
framing1.xlsx,"A random sample of 100 lawyers and engineers is taken. The sample ends up
comprising 70 lawyers and 30 engineers. From this sample, one person is interviewed. He is a
30-year-old man of high ability and high motivation. He promises to be quite successful in his
field. He is well liked by colleagues.",Which profession do you think the man is?,ENGINEER,LAWYER,1,0,0,0,0,0,4,4,1,9.582531165913679,,,,,,,,,,,,,,,,9.54183975001797,9.582531165913679,9.582531165913679,9.582531165913679,9.582531165913679,9.759404083015397,1,[0.1875037499703467],[0.1875088328961283],0,,,,,,,302282,001,2023-10-15_20h00.49.440,Framing_HieuLe,2023.2.1,60.169693585106295,2023-10-15 20h00.57.101684 -0500,
framing1.xlsx,,,,,,0,0,0,0,,,,,,,,,,,,,,,,,,,,,,,,,,,,,,,,,9.759930916014127,9.760160582954995,,,302282,001,2023-10-15_20h00.49.440,Framing_HieuLe,2023.2.1,60.169693585106295,2023-10-15 20h00.57.101684 -0500,
,,,,,,,,,,,,,,,,,,,,,,,,,,,,,,,,,,,,,,,,,,,,9.760198874981143,9.774092999985442,,,,,,,,
