listName,ItemText,Question,Option1,Option2,Framing,conditions.thisRepN,conditions.thisTrialN,conditions.thisN,conditions.thisIndex,trials.thisRepN,trials.thisTrialN,trials.thisN,trials.thisIndex,thisRow.t,notes,Welcome.started,text_3.started,key_resp.started,Welcome.stopped,key_resp.keys,key_resp.rt,key_resp.duration,Instructions.started,text_4.started,key_resp_2.started,Instructions.stopped,key_resp_2.keys,key_resp_2.rt,key_resp_2.duration,trial.started,button.started,button_2.started,text.started,text_2.started,trial.stopped,button.numClicks,button.timesOn,button.timesOff,button_2.numClicks,button_2.timesOn,button_2.timesOff,code.started,code.stopped,Goodbye.started,text_5.started,text_5.stopped,Goodbye.stopped,participant,session,date,expName,psychopyVersion,frameRate,expStart,
,,,,,,,,,,,,,,,,0.015583666041493416,0.03310187498573214,0.03310187498573214,1.2385259580332786,space,1.1579823750071228,None,,,,,,,,,,,,,,,,,,,,,,,,,,438528,001,2023-10-15_20h05.18.946,Framing_HieuLe,2023.2.1,59.838287155986826,2023-10-15 20h05.25.784056 -0500,
,,,,,,,,,,,,,,,,,,,,,,,1.2385652500670403,1.2584632079815492,1.2584632079815492,2.1323606660589576,space,0.8575885830214247,None,,,,,,,,,,,,,,,,,,,438528,001,2023-10-15_20h05.18.946,Framing_HieuLe,2023.2.1,59.838287155986826,2023-10-15 20h05.25.784056 -0500,
framing2.xlsx,"A new vaccine is available for a deadly new disease that is sweeping across the
world. Scientists estimate that 99.9% of people who take vaccine will not die from the disease.","Would you take the vaccine, if given the opportunity?",YES,NO,2,0,0,0,1,0,0,0,0,2.2273469159845263,,,,,,,,,,,,,,,,2.1635690410621464,2.2273469159845263,2.2273469159845263,2.2273469159845263,2.2273469159845263,3.2002395830349997,0,,,1,[0.9884144579991698],[0.9884205410489812],,,,,,,438528,001,2023-10-15_20h05.18.946,Framing_HieuLe,2023.2.1,59.838287155986826,2023-10-15 20h05.25.784056 -0500,
framing2.xlsx,"At a fundraiser, you are presented with two options for a raffle ticket. For Option A,
you are guaranteed to win a gift card to a random restaurant valued at $50. For Option B, you
have a 20% chance to win a gift card to a random restaurant valued at $250.",Which option would you select?,OPTION A,OPTION B,2,0,0,0,1,0,1,1,3,3.242935208021663,,,,,,,,,,,,,,,,3.2012200410244986,3.242935208021663,3.242935208021663,3.242935208021663,3.242935208021663,3.8312682500109076,1,[0.5990457499865443],[0.5990507079986855],0,,,,,,,,,438528,001,2023-10-15_20h05.18.946,Framing_HieuLe,2023.2.1,59.838287155986826,2023-10-15 20h05.25.784056 -0500,
framing2.xlsx,"You are deciding between buying two cars, Car A and Car B. On a car review
website, you find that the average of 1,000 ratings for Car A is a 4.95/5.0 and the average rating
for Car B is 3.70/5.0. Your neighbor recently purchased Car B and found that it is excellent, and
she would recommend purchasing it.",Which car would you decide to purchase?,CAR A,CAR B,2,0,0,0,1,0,2,2,2,3.8716852500801906,,,,,,,,,,,,,,,,3.8318877080455422,3.8716852500801906,3.8716852500801906,3.8716852500801906,3.8716852500801906,4.465670790988952,0,,,1,[0.6042565839597955],[0.6042618749197572],,,,,,,438528,001,2023-10-15_20h05.18.946,Framing_HieuLe,2023.2.1,59.838287155986826,2023-10-15 20h05.25.784056 -0500,
framing2.xlsx,"A random sample of 100 lawyers and engineers is taken. The sample ends up
comprising 70 engineers and 30 lawyers. From this sample, one person is interviewed. He is a
30-year-old man of high ability and high motivation. He promises to be quite successful in his
field. He is well liked by colleagues.",Which profession do you think the man is?,ENGINEER,LAWYER,2,0,0,0,1,0,3,3,1,4.508169915992767,,,,,,,,,,,,,,,,4.466288208030164,4.508169915992767,4.508169915992767,4.508169915992767,4.508169915992767,5.065194125054404,1,[0.5675198329845443],[0.5675244579324499],0,,,,,,,,,438528,001,2023-10-15_20h05.18.946,Framing_HieuLe,2023.2.1,59.838287155986826,2023-10-15 20h05.25.784056 -0500,
framing2.xlsx,"Linda is 31 years old, single, outspoken, and very bright. She majored in economics.
As a student, she was deeply concerned with issues of individual liberty, low taxes, and also
participated in “small government” demonstrations. Which is more probable?",Which is more probable:,Linda is a bank teller.,"Linda is a bank teller who is also
involved in the feminist movement.",2,0,0,0,1,0,4,4,4,5.118403875036165,,,,,,,,,,,,,,,,5.065802041091956,5.118403875036165,5.118403875036165,5.118403875036165,5.118403875036165,5.698693957994692,0,,,1,[0.5906039999099448],[0.5906089579220861],,,,,,,438528,001,2023-10-15_20h05.18.946,Framing_HieuLe,2023.2.1,59.838287155986826,2023-10-15 20h05.25.784056 -0500,
framing2.xlsx,,,,,,0,0,0,1,,,,,,,,,,,,,,,,,,,,,,,,,,,,,,,,,5.699216291075572,5.699472457985394,,,,,438528,001,2023-10-15_20h05.18.946,Framing_HieuLe,2023.2.1,59.838287155986826,2023-10-15 20h05.25.784056 -0500,
,,,,,,,,,,,,,,,,,,,,,,,,,,,,,,,,,,,,,,,,,,,,5.6995095000602305,5.713876333087683,9.714990791049786,9.69850875006523,,,,,,,,
