listName,ItemText,Question,Option1,Option2,Framing,conditions.thisRepN,conditions.thisTrialN,conditions.thisN,conditions.thisIndex,trials.thisRepN,trials.thisTrialN,trials.thisN,trials.thisIndex,thisRow.t,notes,Welcome.started,text_3.started,key_resp.started,Welcome.stopped,key_resp.keys,key_resp.rt,key_resp.duration,Instructions.started,text_4.started,key_resp_2.started,Instructions.stopped,key_resp_2.keys,key_resp_2.rt,key_resp_2.duration,trial.started,button.started,button_2.started,text.started,text_2.started,trial.stopped,button.numClicks,button.timesOn,button.timesOff,button_2.numClicks,button_2.timesOn,button_2.timesOff,code.started,code.stopped,Goodbye.started,text_5.started,text_5.stopped,Goodbye.stopped,participant,session,date,expName,psychopyVersion,frameRate,expStart,
,,,,,,,,,,,,,,,,0.013105707941576838,0.02058037498500198,0.02058037498500198,5.562673041946255,space,5.517810875084251,None,,,,,,,,,,,,,,,,,,,,,,,,,,572413,001,2023-10-15_20h01.31.214,Framing_HieuLe,2023.2.1,59.93862259244267,2023-10-15 20h01.36.856356 -0500,
,,,,,,,,,,,,,,,,,,,,,,,5.562708749901503,5.5801851249998435,5.5801851249998435,6.673447291948833,space,1.0815166670363396,None,,,,,,,,,,,,,,,,,,,572413,001,2023-10-15_20h01.31.214,Framing_HieuLe,2023.2.1,59.93862259244267,2023-10-15 20h01.36.856356 -0500,
framing1.xlsx,"Linda is 31 years old, single, outspoken, and very bright. She majored in
philosophy. As a student, she was deeply concerned with issues of discrimination and social
justice, and also participated in anti-nuclear demonstrations.",Which is more probable:,Linda is a bank teller.,"Linda is a bank teller who is also
involved in the feminist movement.",1,0,0,0,0,0,0,0,4,6.7702945419587195,,,,,,,,,,,,,,,,6.697017667000182,6.7702945419587195,6.7702945419587195,6.7702945419587195,6.7702945419587195,10.57354224997107,1,[3.8180556669831276],[3.818061084020883],0,,,,,,,,,572413,001,2023-10-15_20h01.31.214,Framing_HieuLe,2023.2.1,59.93862259244267,2023-10-15 20h01.36.856356 -0500,
framing1.xlsx,"A new vaccine is available for a deadly new disease that is sweeping across the
world. Scientists estimate that if 1 million people take the vaccine, 1,000 of those people will
still die from the disease.","Would you take the vaccine, if given the opportunity?",YES,NO,1,0,0,0,0,0,1,1,0,10.614666707930155,,,,,,,,,,,,,,,,10.574469374958426,10.614666707930155,10.614666707930155,10.614666707930155,10.614666707930155,11.607079082983546,0,,,1,[1.0025046250084415],[1.0025100420461968],,,,,,,572413,001,2023-10-15_20h01.31.214,Framing_HieuLe,2023.2.1,59.93862259244267,2023-10-15 20h01.36.856356 -0500,
framing1.xlsx,"At a fundraiser, you are presented with two options for a raffle ticket. For Option A,
you are guaranteed to win a gift card to a random restaurant valued at $5. For Option B, you
have a 20% chance to win a gift card to a random restaurant valued at $25.",Which option would you select?,OPTION A,OPTION B,1,0,0,0,0,0,2,2,3,11.650189124979079,,,,,,,,,,,,,,,,11.60768462496344,11.650189124979079,11.650189124979079,11.650189124979079,11.650189124979079,12.440187125001103,1,[0.8008135840063915],[0.8008182499324903],0,,,,,,,,,572413,001,2023-10-15_20h01.31.214,Framing_HieuLe,2023.2.1,59.93862259244267,2023-10-15 20h01.36.856356 -0500,
framing1.xlsx,"A random sample of 100 lawyers and engineers is taken. The sample ends up
comprising 70 lawyers and 30 engineers. From this sample, one person is interviewed. He is a
30-year-old man of high ability and high motivation. He promises to be quite successful in his
field. He is well liked by colleagues.",Which profession do you think the man is?,ENGINEER,LAWYER,1,0,0,0,0,0,3,3,1,12.483371749985963,,,,,,,,,,,,,,,,12.440807166974992,12.483371749985963,12.483371749985963,12.483371749985963,12.483371749985963,13.423447625013068,0,,,1,[0.9504174169851467],[0.9504229170270264],,,,,,,572413,001,2023-10-15_20h01.31.214,Framing_HieuLe,2023.2.1,59.93862259244267,2023-10-15 20h01.36.856356 -0500,
framing1.xlsx,"You are deciding between buying two cars, Car A and Car B. On a car review
website, you find that the average of 1,000 ratings for Car A is a 4.95/5.0 and the average rating
for Car B is 3.70/5.0.",Which car would you decide to purchase?,CAR A,CAR B,1,0,0,0,0,0,4,4,2,13.457857541972771,,,,,,,,,,,,,,,,13.424048207933083,13.457857541972771,13.457857541972771,13.457857541972771,13.457857541972771,14.523361124913208,0,,,1,[1.0756717909825966],[1.0756776250200346],,,,,,,572413,001,2023-10-15_20h01.31.214,Framing_HieuLe,2023.2.1,59.93862259244267,2023-10-15 20h01.36.856356 -0500,
framing1.xlsx,,,,,,0,0,0,0,,,,,,,,,,,,,,,,,,,,,,,,,,,,,,,,,14.523878457956016,14.524161457899027,,,,,572413,001,2023-10-15_20h01.31.214,Framing_HieuLe,2023.2.1,59.93862259244267,2023-10-15 20h01.36.856356 -0500,
,,,,,,,,,,,,,,,,,,,,,,,,,,,,,,,,,,,,,,,,,,,,14.52419899997767,14.538451457978226,18.538874457939528,18.523230457911268,,,,,,,,
