listName,ItemText,Question,Option1,Option2,Framing,conditions.thisRepN,conditions.thisTrialN,conditions.thisN,conditions.thisIndex,trials.thisRepN,trials.thisTrialN,trials.thisN,trials.thisIndex,thisRow.t,notes,Welcome.started,text_3.started,key_resp.started,Welcome.stopped,key_resp.keys,key_resp.rt,key_resp.duration,Instructions.started,text_4.started,key_resp_2.started,Instructions.stopped,key_resp_2.keys,key_resp_2.rt,key_resp_2.duration,trial.started,button.started,button_2.started,text.started,text_2.started,trial.stopped,button.numClicks,button.timesOn,button.timesOff,button_2.numClicks,button_2.timesOn,button_2.timesOff,code.started,code.stopped,Goodbye.started,text_5.started,text_5.stopped,Goodbye.stopped,participant,session,date,expName,psychopyVersion,frameRate,expStart,
,,,,,,,,,,,,,,,,0.048307124990969896,0.07416062499396503,0.07416062499396503,1.9655261660227552,space,1.8624344170093536,None,,,,,,,,,,,,,,,,,,,,,,,,,,837653,001,2023-10-15_19h59.37.742,Framing_HieuLe,2023.2.1,60.01197226305444,2023-10-15 19h59.46.646577 -0500,
,,,,,,,,,,,,,,,,,,,,,,,1.9655736250570044,1.986625040997751,1.986625040997751,7.768263166071847,space,5.778363416087814,None,,,,,,,,,,,,,,,,,,,837653,001,2023-10-15_19h59.37.742,Framing_HieuLe,2023.2.1,60.01197226305444,2023-10-15 19h59.46.646577 -0500,
framing2.xlsx,"A random sample of 100 lawyers and engineers is taken. The sample ends up
comprising 70 engineers and 30 lawyers. From this sample, one person is interviewed. He is a
30-year-old man of high ability and high motivation. He promises to be quite successful in his
field. He is well liked by colleagues.",Which profession do you think the man is?,ENGINEER,LAWYER,2,0,0,0,1,0,0,0,1,8.091283833025955,,,,,,,,,,,,,,,,7.7905200000386685,8.091283833025955,8.091283833025955,8.091283833025955,8.091283833025955,19.718465708079748,1,[11.86433508398477],[11.864340333966538],0,,,,,,,,,837653,001,2023-10-15_19h59.37.742,Framing_HieuLe,2023.2.1,60.01197226305444,2023-10-15 19h59.46.646577 -0500,
framing2.xlsx,"At a fundraiser, you are presented with two options for a raffle ticket. For Option A,
you are guaranteed to win a gift card to a random restaurant valued at $50. For Option B, you
have a 20% chance to win a gift card to a random restaurant valued at $250.",Which option would you select?,OPTION A,OPTION B,2,0,0,0,1,0,1,1,3,19.76130691601429,,,,,,,,,,,,,,,,19.71954125002958,19.76130691601429,19.76130691601429,19.76130691601429,19.76130691601429,20.73493137501646,0,,,1,[0.9841390409274027],[0.9841442909091711],,,,,,,837653,001,2023-10-15_19h59.37.742,Framing_HieuLe,2023.2.1,60.01197226305444,2023-10-15 19h59.46.646577 -0500,
framing2.xlsx,"You are deciding between buying two cars, Car A and Car B. On a car review
website, you find that the average of 1,000 ratings for Car A is a 4.95/5.0 and the average rating
for Car B is 3.70/5.0. Your neighbor recently purchased Car B and found that it is excellent, and
she would recommend purchasing it.",Which car would you decide to purchase?,CAR A,CAR B,2,0,0,0,1,0,2,2,2,20.77375637507066,,,,,,,,,,,,,,,,20.73554366605822,20.77375637507066,20.77375637507066,20.77375637507066,20.77375637507066,22.71822029107716,1,[1.9549294169992208],[1.9549342920072377],0,,,,,,,,,837653,001,2023-10-15_19h59.37.742,Framing_HieuLe,2023.2.1,60.01197226305444,2023-10-15 19h59.46.646577 -0500,
framing2.xlsx,"Linda is 31 years old, single, outspoken, and very bright. She majored in economics.
As a student, she was deeply concerned with issues of individual liberty, low taxes, and also
participated in “small government” demonstrations. Which is more probable?",Which is more probable:,Linda is a bank teller.,"Linda is a bank teller who is also
involved in the feminist movement.",2,0,0,0,1,0,3,3,4,22.770582708064467,,,,,,,,,,,,,,,,22.718857166008092,22.770582708064467,22.770582708064467,22.770582708064467,22.770582708064467,23.835111875087023,0,,,1,[1.074865375063382],[1.0748708329629153],,,,,,,837653,001,2023-10-15_19h59.37.742,Framing_HieuLe,2023.2.1,60.01197226305444,2023-10-15 19h59.46.646577 -0500,
framing2.xlsx,"A new vaccine is available for a deadly new disease that is sweeping across the
world. Scientists estimate that 99.9% of people who take vaccine will not die from the disease.","Would you take the vaccine, if given the opportunity?",YES,NO,2,0,0,0,1,0,4,4,0,23.865713124978356,,,,,,,,,,,,,,,,23.835718207992613,23.865713124978356,23.865713124978356,23.865713124978356,23.865713124978356,24.553000707994215,0,,,1,[0.6977920420467854],[0.6977976670023054],,,,,,,837653,001,2023-10-15_19h59.37.742,Framing_HieuLe,2023.2.1,60.01197226305444,2023-10-15 19h59.46.646577 -0500,
framing2.xlsx,,,,,,0,0,0,1,,,,,,,,,,,,,,,,,,,,,,,,,,,,,,,,,24.553528083022684,24.553774291067384,,,,,837653,001,2023-10-15_19h59.37.742,Framing_HieuLe,2023.2.1,60.01197226305444,2023-10-15 19h59.46.646577 -0500,
,,,,,,,,,,,,,,,,,,,,,,,,,,,,,,,,,,,,,,,,,,,,24.55380624998361,24.56679129099939,28.56744966597762,28.55098145804368,,,,,,,,
